word,colour,stim_condition,correct_res,thisN,thisTrialN,thisRepN,key_resp.keys,key_resp.corr,key_resp.rt,key_resp.duration,trials.thisRepN,trials.thisTrialN,trials.thisN,trials.thisIndex,thisRow.t,notes,ins.started,text_2.started,ins.stopped,trial.started,fixation.started,fixation.stopped,text.started,key_resp.started,trial.stopped,trials.key_resp.keys,trials.key_resp.corr,trials.key_resp.rt,trials.key_resp.duration,thank_you.started,text_3.started,text_3.stopped,thank_you.stopped,participant,session,date,expName,expVersion,psychopyVersion,frameRate,expStart,
,,,,,,,,,,,,,,,,,0.010904533999564592,0.032980578998831334,1.0059543469978962,,,,,,,,,,,,,,,01,001,2025-08-24_18h38.23.404,stroop,,2025.1.1,83.88688400642593,2025-08-24 18h38.32.897065 +0530,
BLUE,red,I,r,0,0,0,r,1,0.8572684650025622,None,0,0,0,2,1.0369650409993483,,,,,1.02344326399907,1.0369650409993483,1.4980309229977138,1.4980309229977138,1.4980309229977138,2.6371772849997797,r,1,0.8572684650025622,None,,,,,01,001,2025-08-24_18h38.23.404,stroop,,2025.1.1,83.88688400642593,2025-08-24 18h38.32.897065 +0530,
BLUE,blue,C,b,1,1,0,b,1,0.7092206380002608,None,0,1,1,3,2.65781806099767,,,,,2.637755389998347,2.65781806099767,3.1296539989998564,3.1296539989998564,3.1296539989998564,3.8461029850004707,b,1,0.7092206380002608,None,,,,,01,001,2025-08-24_18h38.23.404,stroop,,2025.1.1,83.88688400642593,2025-08-24 18h38.32.897065 +0530,
RED,blue,I,b,2,2,0,b,1,0.5070233279984677,None,0,2,2,1,3.8596695129999716,,,,,3.850405941000645,3.8596695129999716,4.345828067998809,4.345828067998809,4.345828067998809,4.856338251000125,b,1,0.5070233279984677,None,,,,,01,001,2025-08-24_18h38.23.404,stroop,,2025.1.1,83.88688400642593,2025-08-24 18h38.32.897065 +0530,
RED,red,C,r,3,3,0,r,1,0.3569173129981209,None,0,3,3,0,4.86878250099835,,,,,4.8569012169973576,4.86878250099835,5.355799026998284,5.355799026998284,5.355799026998284,5.72257759599961,r,1,0.3569173129981209,None,,,,,01,001,2025-08-24_18h38.23.404,stroop,,2025.1.1,83.88688400642593,2025-08-24 18h38.32.897065 +0530,
RED,red,C,r,4,0,1,r,1,0.40638598600344267,None,1,0,4,0,5.730914479998319,,,,,5.723131527000078,5.730914479998319,6.213346051998087,6.213346051998087,6.213346051998087,6.623437769998418,r,1,0.40638598600344267,None,,,,,01,001,2025-08-24_18h38.23.404,stroop,,2025.1.1,83.88688400642593,2025-08-24 18h38.32.897065 +0530,
BLUE,red,I,r,5,1,1,r,1,0.487374684002134,None,1,1,5,2,6.633672559997649,,,,,6.62577333399895,6.633672559997649,7.122417684997345,7.122417684997345,7.122417684997345,7.613489011997444,r,1,0.487374684002134,None,,,,,01,001,2025-08-24_18h38.23.404,stroop,,2025.1.1,83.88688400642593,2025-08-24 18h38.32.897065 +0530,
RED,blue,I,b,6,2,1,b,1,0.38773919099912746,None,1,2,6,1,7.625260955999693,,,,,7.615768750998541,7.625260955999693,8.113855920997594,8.113855920997594,8.113855920997594,8.50657810499979,b,1,0.38773919099912746,None,,,,,01,001,2025-08-24_18h38.23.404,stroop,,2025.1.1,83.88688400642593,2025-08-24 18h38.32.897065 +0530,
BLUE,blue,C,b,7,3,1,b,1,0.3819025890006742,None,1,3,7,3,8.517607653997402,,,,,8.50890517699736,8.517607653997402,9.00559692099705,9.00559692099705,9.00559692099705,9.389838707000308,b,1,0.3819025890006742,None,,,,,01,001,2025-08-24_18h38.23.404,stroop,,2025.1.1,83.88688400642593,2025-08-24 18h38.32.897065 +0530,
BLUE,red,I,r,8,0,2,r,1,0.431907381000201,None,2,0,8,2,9.399219817998528,,,,,9.390389074997074,9.399219817998528,9.888577886998974,9.888577886998974,9.888577886998974,10.322946663000039,r,1,0.431907381000201,None,,,,,01,001,2025-08-24_18h38.23.404,stroop,,2025.1.1,83.88688400642593,2025-08-24 18h38.32.897065 +0530,
RED,blue,I,b,9,1,2,b,1,0.5666158080020978,None,2,1,9,1,10.333814402998541,,,,,10.325280918998033,10.333814402998541,10.813784841997403,10.813784841997403,10.813784841997403,11.389557742997567,b,1,0.5666158080020978,None,,,,,01,001,2025-08-24_18h38.23.404,stroop,,2025.1.1,83.88688400642593,2025-08-24 18h38.32.897065 +0530,
BLUE,blue,C,b,10,2,2,b,1,0.4780885389991454,None,2,2,10,3,11.400558596000337,,,,,11.39187223299814,11.400558596000337,11.880373400999815,11.880373400999815,11.880373400999815,12.363582972997392,b,1,0.4780885389991454,None,,,,,01,001,2025-08-24_18h38.23.404,stroop,,2025.1.1,83.88688400642593,2025-08-24 18h38.32.897065 +0530,
RED,red,C,r,11,3,2,r,1,0.3794561920003616,None,2,3,11,0,12.375662829999783,,,,,12.365873709997686,12.375662829999783,12.863913015000435,12.863913015000435,12.863913015000435,13.246618392000528,r,1,0.3794561920003616,None,,,,,01,001,2025-08-24_18h38.23.404,stroop,,2025.1.1,83.88688400642593,2025-08-24 18h38.32.897065 +0530,
BLUE,red,I,r,12,0,3,r,1,0.7110009150019323,None,3,0,12,2,13.258545614997274,,,,,13.248940948997188,13.258545614997274,13.747386061997531,13.747386061997531,13.747386061997531,14.463718790997518,r,1,0.7110009150019323,None,,,,,01,001,2025-08-24_18h38.23.404,stroop,,2025.1.1,83.88688400642593,2025-08-24 18h38.32.897065 +0530,
BLUE,blue,C,b,13,1,3,b,1,0.6279867619996367,None,3,1,13,3,14.472685025997635,,,,,14.464259565997054,14.472685025997635,14.963261745000636,14.963261745000636,14.963261745000636,15.597420843998407,b,1,0.6279867619996367,None,,,,,01,001,2025-08-24_18h38.23.404,stroop,,2025.1.1,83.88688400642593,2025-08-24 18h38.32.897065 +0530,
RED,red,C,r,14,2,3,r,1,0.6723249700007727,None,3,2,14,0,15.609577445997274,,,,,15.59968877099891,15.609577445997274,16.09693419299947,16.09693419299947,16.09693419299947,16.772976426997047,r,1,0.6723249700007727,None,,,,,01,001,2025-08-24_18h38.23.404,stroop,,2025.1.1,83.88688400642593,2025-08-24 18h38.32.897065 +0530,
RED,blue,I,b,15,3,3,b,1,0.9954960530012613,None,3,3,15,1,16.78145447699717,,,,,16.773512951000157,16.78145447699717,17.271840751000127,17.271840751000127,17.271840751000127,18.272854601997096,b,1,0.9954960530012613,None,,,,,01,001,2025-08-24_18h38.23.404,stroop,,2025.1.1,83.88688400642593,2025-08-24 18h38.32.897065 +0530,
BLUE,red,I,r,16,0,4,r,1,0.9414900559968373,None,4,0,16,2,18.283042694998585,,,,,18.27518216399767,18.283042694998585,18.76363121399845,18.76363121399845,18.76363121399845,19.706566106997343,r,1,0.9414900559968373,None,,,,,01,001,2025-08-24_18h38.23.404,stroop,,2025.1.1,83.88688400642593,2025-08-24 18h38.32.897065 +0530,
RED,red,C,r,17,1,4,r,1,0.37255209800059674,None,4,1,17,0,19.71710181999879,,,,,19.70894391299953,19.71710181999879,20.205493336998188,20.205493336998188,20.205493336998188,20.580067058999703,r,1,0.37255209800059674,None,,,,,01,001,2025-08-24_18h38.23.404,stroop,,2025.1.1,83.88688400642593,2025-08-24 18h38.32.897065 +0530,
RED,blue,I,b,18,2,4,b,1,0.9131968949986913,None,4,2,18,1,20.58858479599803,,,,,20.580623647998436,20.58858479599803,21.079761722998228,21.079761722998228,21.079761722998228,21.996564196997497,b,1,0.9131968949986913,None,,,,,01,001,2025-08-24_18h38.23.404,stroop,,2025.1.1,83.88688400642593,2025-08-24 18h38.32.897065 +0530,
BLUE,blue,C,b,19,3,4,b,1,0.32105759999831207,None,4,3,19,3,22.008356323000044,,,,,21.99888124499921,22.008356323000044,22.496909142999357,22.496909142999357,22.496909142999357,22.82302885599711,b,1,0.32105759999831207,None,,,,,01,001,2025-08-24_18h38.23.404,stroop,,2025.1.1,83.88688400642593,2025-08-24 18h38.32.897065 +0530,
RED,red,C,r,20,0,5,r,1,0.5040120309968188,None,5,0,20,0,22.833750615998724,,,,,22.825680038000428,22.833750615998724,23.32200322099743,23.32200322099743,23.32200322099743,23.830057252998813,r,1,0.5040120309968188,None,,,,,01,001,2025-08-24_18h38.23.404,stroop,,2025.1.1,83.88688400642593,2025-08-24 18h38.32.897065 +0530,
BLUE,blue,C,b,21,1,5,b,1,0.3364131689995702,None,5,1,21,3,23.84212492000006,,,,,23.832380458999978,23.84212492000006,24.33045631099958,24.33045631099958,24.33045631099958,24.672558308997395,b,1,0.3364131689995702,None,,,,,01,001,2025-08-24_18h38.23.404,stroop,,2025.1.1,83.88688400642593,2025-08-24 18h38.32.897065 +0530,
BLUE,red,I,r,22,2,5,r,1,0.6743961199972546,None,5,2,22,2,24.68106818999877,,,,,24.67312613700051,24.68106818999877,25.163480456998514,25.163480456998514,25.163480456998514,25.839759405000223,r,1,0.6743961199972546,None,,,,,01,001,2025-08-24_18h38.23.404,stroop,,2025.1.1,83.88688400642593,2025-08-24 18h38.32.897065 +0530,
RED,blue,I,b,23,3,5,b,1,0.4460684850018879,None,5,3,23,1,25.850933909998275,,,,,25.842125694998686,25.850933909998275,26.33869877899997,26.33869877899997,26.33869877899997,26.789537062999443,b,1,0.4460684850018879,None,,,,,01,001,2025-08-24_18h38.23.404,stroop,,2025.1.1,83.88688400642593,2025-08-24 18h38.32.897065 +0530,
BLUE,red,I,r,24,0,6,r,1,0.8419514839988551,None,6,0,24,2,26.800490948000515,,,,,26.791888089999702,26.800490948000515,27.287798417997692,27.287798417997692,27.287798417997692,28.139533751997078,r,1,0.8419514839988551,None,,,,,01,001,2025-08-24_18h38.23.404,stroop,,2025.1.1,83.88688400642593,2025-08-24 18h38.32.897065 +0530,
RED,red,C,r,25,1,6,r,1,0.34525226099867723,None,6,1,25,0,28.150313676000223,,,,,28.142098579999583,28.150313676000223,28.638571163999586,28.638571163999586,28.638571163999586,28.98940340599802,r,1,0.34525226099867723,None,,,,,01,001,2025-08-24_18h38.23.404,stroop,,2025.1.1,83.88688400642593,2025-08-24 18h38.32.897065 +0530,
RED,blue,I,b,26,2,6,b,1,0.42250215799867874,None,6,2,26,1,28.997818519997963,,,,,28.989939745999436,28.997818519997963,29.48009626199928,29.48009626199928,29.48009626199928,29.906195141000353,b,1,0.42250215799867874,None,,,,,01,001,2025-08-24_18h38.23.404,stroop,,2025.1.1,83.88688400642593,2025-08-24 18h38.32.897065 +0530,
BLUE,blue,C,b,27,3,6,b,1,0.27863226200133795,None,6,3,27,3,29.916880255997967,,,,,29.90884142199866,29.916880255997967,30.40517532100057,30.40517532100057,30.40517532100057,30.689429010999447,b,1,0.27863226200133795,None,,,,,01,001,2025-08-24_18h38.23.404,stroop,,2025.1.1,83.88688400642593,2025-08-24 18h38.32.897065 +0530,
BLUE,red,I,r,28,0,7,r,1,0.4252651659990079,None,7,0,28,2,30.697824650000257,,,,,30.689971050000167,30.697824650000257,31.18826656699821,31.18826656699821,31.18826656699821,31.622806118997687,r,1,0.4252651659990079,None,,,,,01,001,2025-08-24_18h38.23.404,stroop,,2025.1.1,83.88688400642593,2025-08-24 18h38.32.897065 +0530,
RED,blue,I,b,29,1,7,b,1,0.4186938330021803,None,7,1,29,1,31.63352908699744,,,,,31.625454400000308,31.63352908699744,32.121754657000565,32.121754657000565,32.121754657000565,32.54638571099713,b,1,0.4186938330021803,None,,,,,01,001,2025-08-24_18h38.23.404,stroop,,2025.1.1,83.88688400642593,2025-08-24 18h38.32.897065 +0530,
BLUE,blue,C,b,30,2,7,b,1,1.4261686819991155,None,7,2,30,3,32.557948378998844,,,,,32.54868108200026,32.557948378998844,33.04623923299732,33.04623923299732,33.04623923299732,34.479523484998936,b,1,1.4261686819991155,None,,,,,01,001,2025-08-24_18h38.23.404,stroop,,2025.1.1,83.88688400642593,2025-08-24 18h38.32.897065 +0530,
RED,red,C,r,31,3,7,r,1,0.4499996349986759,None,7,3,31,0,34.49112624699774,,,,,34.48185481499968,34.49112624699774,34.98038624000037,34.98038624000037,34.98038624000037,35.43989352000062,r,1,0.4499996349986759,None,,,,,01,001,2025-08-24_18h38.23.404,stroop,,2025.1.1,83.88688400642593,2025-08-24 18h38.32.897065 +0530,
RED,blue,I,b,32,0,8,b,1,0.7522642029980489,None,8,0,32,1,35.450594828998874,,,,,35.44061582299764,35.450594828998874,35.9381543749987,35.9381543749987,35.9381543749987,36.69642435899732,b,1,0.7522642029980489,None,,,,,01,001,2025-08-24_18h38.23.404,stroop,,2025.1.1,83.88688400642593,2025-08-24 18h38.32.897065 +0530,
RED,red,C,r,33,1,8,r,1,0.5152374460012652,None,8,1,33,0,36.70524434399704,,,,,36.69697993400041,36.70524434399704,37.195963534999464,37.195963534999464,37.195963534999464,37.712834498997836,r,1,0.5152374460012652,None,,,,,01,001,2025-08-24_18h38.23.404,stroop,,2025.1.1,83.88688400642593,2025-08-24 18h38.32.897065 +0530,
BLUE,blue,C,b,34,2,8,b,1,0.44593748500119545,None,8,2,34,3,37.7247187819994,,,,,37.71524242599844,37.7247187819994,38.213268580999284,38.213268580999284,38.213268580999284,38.662633053998434,b,1,0.44593748500119545,None,,,,,01,001,2025-08-24_18h38.23.404,stroop,,2025.1.1,83.88688400642593,2025-08-24 18h38.32.897065 +0530,
BLUE,red,I,r,35,3,8,r,1,0.41156275599860237,None,8,3,35,2,38.67130632599947,,,,,38.66320116600036,38.67130632599947,39.1626038109971,39.1626038109971,39.1626038109971,39.579622362998634,r,1,0.41156275599860237,None,,,,,01,001,2025-08-24_18h38.23.404,stroop,,2025.1.1,83.88688400642593,2025-08-24 18h38.32.897065 +0530,
RED,blue,I,b,36,0,9,b,1,0.8602869700007432,None,9,0,36,1,39.5913080859973,,,,,39.5819548799991,39.5913080859973,40.07983083399813,40.07983083399813,40.07983083399813,40.94623915500051,b,1,0.8602869700007432,None,,,,,01,001,2025-08-24_18h38.23.404,stroop,,2025.1.1,83.88688400642593,2025-08-24 18h38.32.897065 +0530,
BLUE,blue,C,b,37,1,9,b,1,0.3225250949981273,None,9,1,37,3,40.957741344998794,,,,,40.948524839997845,40.957741344998794,41.444676325998444,41.444676325998444,41.444676325998444,41.772539707999385,b,1,0.3225250949981273,None,,,,,01,001,2025-08-24_18h38.23.404,stroop,,2025.1.1,83.88688400642593,2025-08-24 18h38.32.897065 +0530,
RED,red,C,r,38,2,9,r,1,0.39184861900139367,None,9,2,38,0,41.782681273998605,,,,,41.774815126998874,41.782681273998605,42.26317007299804,42.26317007299804,42.26317007299804,42.66268060799848,r,1,0.39184861900139367,None,,,,,01,001,2025-08-24_18h38.23.404,stroop,,2025.1.1,83.88688400642593,2025-08-24 18h38.32.897065 +0530,
BLUE,red,I,r,39,3,9,r,1,0.30818267399808974,None,9,3,39,2,42.67514799199853,,,,,42.66552324700024,42.67514799199853,43.162828954998986,43.162828954998986,43.162828954998986,43.47262311499799,r,1,0.30818267399808974,None,,,,,01,001,2025-08-24_18h38.23.404,stroop,,2025.1.1,83.88688400642593,2025-08-24 18h38.32.897065 +0530,
,,,,,,,,,,,,,,,,,,,,,,,,,,,,,,43.47275855299813,43.481614370997704,44.477567589998216,44.47185461399931,01,001,2025-08-24_18h38.23.404,stroop,,2025.1.1,83.88688400642593,2025-08-24 18h38.32.897065 +0530,
